Wavelength      Ele       excit   log gf                           EW
10065.045       26.0      4.83    -0.432
10070.521       26.0      5.51    -1.527
10080.415       26.0      5.10    -2.008
10081.394       26.0      2.42    -4.551
10086.242       26.0      2.95    -4.059
10137.100       26.0      5.09    -1.768
10142.844       26.0      5.06    -1.574
10145.561       26.0      4.80    -0.301
10155.163       26.0      2.18    -4.340
10156.507       26.0      4.59    -2.125
10167.469       26.0      2.20    -4.199
10195.106       26.0      2.73    -3.625
10198.427       26.0      6.02    -1.152
10216.313       26.0      4.73    -0.148
10218.408       26.0      3.07    -2.898
10227.991       26.0      6.12    -0.449
10230.796       26.0      6.12    -0.414
10265.218       26.0      2.22    -4.668
10283.776       26.0      5.51    -1.621
10307.450       26.0      4.59    -2.500
10327.340       26.0      5.54     0.504
10332.328       26.0      3.63    -3.145
10340.886       26.0      2.20    -3.672
10347.966       26.0      5.39    -0.754
10353.805       26.0      5.39    -1.035
10364.063       26.0      5.45    -1.129
10379.000       26.0      2.22    -4.246
10388.746       26.0      5.45    -1.527
10395.796       26.0      2.18    -3.461
10423.029       26.0      2.69    -3.660
10423.743       26.0      3.07    -3.121
10469.653       26.0      3.88    -1.363
10532.235       26.0      3.93    -1.703
10535.710       26.0      6.21    -0.218
10546.434       26.0      6.27    -0.836
10555.650       26.0      5.45    -1.352
10577.139       26.0      3.30    -3.238
10611.687       26.0      6.17    -0.070
10616.721       26.0      3.27    -3.320
10674.071       26.0      6.17    -0.578
10687.795       26.0      5.51    -1.094
10725.186       26.0      3.64    -2.945
10753.005       26.0      3.96    -2.102
10761.442       26.0      6.22    -0.906
10771.229       26.0      5.59    -1.586
10775.500       26.0      6.22    -0.930
10780.694       26.0      3.24    -3.613
10783.050       26.0      3.11    -2.805
10785.389       26.0      5.62    -1.422
10818.276       26.0      3.96    -2.184
10833.964       26.0      5.59    -0.566
10849.467       26.0      5.54    -0.520
10863.519       26.0      4.73    -0.977
10884.264       26.0      3.93    -2.113
10896.299       26.0      3.07    -2.922
10913.040       26.0      5.54    -1.633
11013.235       26.0      4.80    -1.346
11026.789       26.0      3.94    -2.488
11119.796       26.0      2.85    -2.523
11402.730       26.0      6.26    -0.014
11641.802       26.0      4.58    -2.137
11669.650       26.0      4.56    -0.883
11727.734       26.0      6.33    -0.162
11743.695       26.0      5.95    -1.223
11778.420       26.0      5.34    -1.691
11890.500       26.0      5.54    -0.379
11943.392       26.0      5.95    -1.082
12053.083       26.0      4.56    -1.645
12119.496       26.0      4.59    -1.809
12131.180       26.0      5.95    -1.293
12180.452       26.0      6.43    -0.754
12197.466       26.0      5.70    -1.445
12213.336       26.0      4.64    -2.020
12227.113       26.0      4.61    -1.451
12244.923       26.0      3.64    -3.221
12283.280       26.0      6.17    -0.613
12340.483       26.0      2.28    -4.750
12342.916       26.0      4.64    -1.574
12459.764       26.0      5.62    -1.744
12510.519       26.0      4.96    -1.973
12556.998       26.0      2.28    -4.023
12615.928       26.0      4.64    -1.820
12638.705       26.0      4.56    -0.812
12648.742       26.0      4.61    -1.574
12807.152       26.0      3.64    -2.664
12808.243       26.0      4.99    -1.809
12824.860       26.0      3.02    -3.619
12840.574       26.0      4.96    -1.633
12879.768       26.0      2.28    -3.578
12896.118       26.0      4.91    -1.785
12933.006       26.0      5.02    -1.926
12934.666       26.0      5.39    -1.141
13014.841       26.0      5.45    -1.586
13098.920       26.0      5.01    -0.707
13147.920       26.0      5.39    -0.777
13352.173       26.0      5.31    -0.479
13392.102       26.0      5.35    -0.210
14641.095       26.0      6.28    -1.070
14641.659       26.0      6.28    -0.836
14808.319       26.0      5.38    -0.883
14854.095       26.0      5.83    -1.059
14963.761       26.0      2.86    -4.363
14979.698       26.0      6.17    -0.660
14982.803       26.0      6.26    -0.719
15017.702       26.0      6.22    -0.178
15051.749       26.0      5.35    -0.003
15077.287       26.0      5.59    -0.672
15077.289       26.0      2.18    -3.871
15094.697       26.0      6.36     0.150
15095.860       26.0      6.22    -0.148
15122.380       26.0      5.62    -0.379
15136.127       26.0      5.83    -0.730
15176.715       26.0      5.92    -0.877
15194.492       26.0      2.22    -4.803
15198.801       26.0      6.31    -1.281
15201.570       26.0      5.49    -1.340
15207.526       26.0      5.38     0.036
15213.022       26.0      6.31    -0.941
15216.885       26.0      5.51    -1.820
15219.618       26.0      5.59    -0.058
15224.731       26.0      5.96    -0.578
15227.878       26.0      6.31    -1.316
15230.323       26.0      6.42     0.017
15237.773       26.0      5.79    -1.598
15239.740       26.0      6.42    -0.025
15244.974       26.0      5.59    -0.170
15251.009       26.0      6.14    -0.719
15289.990       26.0      6.28    -0.977
15335.383       26.0      5.41    -0.003
15375.340       26.0      5.92    -1.123
15394.673       26.0      5.62    -0.244
15394.673       26.0      5.96     0.007
15395.718       26.0      5.62    -0.414
15427.621       26.0      6.45    -1.176
15451.301       26.0      6.45    -0.625
15451.943       26.0      6.29    -1.205
15451.979       26.0      6.34    -1.164
15476.503       26.0      6.32    -1.311
15485.456       26.0      6.28    -0.906
15490.339       26.0      2.20    -4.855
15490.884       26.0      6.29    -0.637
15496.700       26.0      6.29    -0.402
15500.801       26.0      6.32    -0.253
15501.323       26.0      6.29    -0.070
15514.282       26.0      6.29    -0.742
15522.609       26.0      6.32    -0.877
15524.311       26.0      5.79    -1.445
15527.209       26.0      6.32    -0.977
15531.752       26.0      5.64    -0.566
15534.245       26.0      5.64    -0.344
15542.079       26.0      5.64    -0.537
15550.439       26.0      6.32    -0.473
15551.435       26.0      6.35    -0.414
15560.786       26.0      6.35    -0.566
15565.230       26.0      6.32    -0.959
15566.727       26.0      6.35    -0.543
15571.121       26.0      5.88    -1.621
15579.080       26.0      6.32    -1.088
15588.262       26.0      6.37     0.128
15590.049       26.0      6.24    -0.613
15591.493       26.0      6.24     0.504
15593.740       26.0      5.03    -1.809
15598.871       26.0      6.24    -0.883
15611.146       26.0      3.42    -2.980
15613.628       26.0      6.35    -0.262
15631.948       26.0      5.35    -0.170
15647.416       26.0      6.33    -1.164
15648.510       26.0      5.43    -0.730
15652.874       26.0      6.25    -0.170
15656.634       26.0      5.87    -1.598
15662.016       26.0      5.83     0.097
15670.127       26.0      6.21    -1.070
15671.006       26.0      6.33    -0.660
15671.869       26.0      5.92    -1.340
15676.585       26.0      5.11    -1.891
15677.015       26.0      6.25    -0.613
15677.521       26.0      6.25     0.036
15682.516       26.0      6.37    -0.520
15691.855       26.0      6.25     0.136
15723.586       26.0      5.62    -0.107
15731.415       26.0      6.45    -0.865
15733.512       26.0      6.25    -0.895
15751.710       26.0      6.36    -1.041
15788.998       26.0      6.25    -0.226
15816.633       26.0      5.96    -0.766
15818.142       26.0      5.59     0.080
15819.134       26.0      6.30    -0.178
15821.712       26.0      5.64    -0.941
15822.817       26.0      5.64    -0.193
15835.167       26.0      6.30     0.376
15837.646       26.0      6.30     0.036
15845.219       26.0      5.98    -1.223
15858.660       26.0      5.59    -1.082
15863.712       26.0      6.26    -0.058
15864.649       26.0      6.36    -0.965
15868.524       26.0      5.59    -0.235
15868.574       26.0      6.36     0.314
15878.444       26.0      5.62    -0.648
15891.162       26.0      6.31    -0.555
15901.521       26.0      5.92    -0.566
15906.044       26.0      5.62    -0.201
15911.305       26.0      5.87    -0.178
15928.161       26.0      5.95    -0.859
15929.475       26.0      6.31    -0.613
15934.020       26.0      6.31    -0.438
15940.920       26.0      5.81    -1.234
15941.851       26.0      6.36    -0.127
15964.867       26.0      5.92    -0.178
15980.728       26.0      6.26     0.520
16009.611       26.0      5.43    -0.631
16012.860       26.0      5.59    -1.973
16019.790       26.0      6.35    -0.871
16029.425       26.0      6.35    -0.754
16037.821       26.0      6.26    -0.120
16040.657       26.0      5.87     0.054
16051.736       26.0      6.26    -1.012
16064.729       26.0      6.35     0.314
16070.183       26.0      5.96    -1.047
16071.399       26.0      6.27    -0.120
16072.244       26.0      6.35    -0.508
16100.284       26.0      6.35    -0.148
16102.411       26.0      5.87     0.185
16153.247       26.0      5.35    -0.637
16156.560       26.0      5.96    -0.590
16165.032       26.0      6.32     0.459
16171.933       26.0      6.38    -0.467
16174.978       26.0      6.38     0.026
16177.994       26.0      6.38    -0.648
16179.585       26.0      6.32    -0.047
16180.903       26.0      6.28    -0.162
16195.063       26.0      6.39     0.258
16198.503       26.0      5.41    -0.684
16203.331       26.0      6.32    -1.029
16204.255       26.0      6.32     0.072
16207.747       26.0      6.32     0.247
16213.004       26.0      6.32    -0.613
16213.540       26.0      6.28    -0.003
16225.621       26.0      6.38    -0.041
16227.154       26.0      6.24    -1.018
16231.649       26.0      6.38     0.314
16235.969       26.0      5.92    -0.391
16240.872       26.0      6.32    -1.152
16243.068       26.0      6.28    -1.352
16245.765       26.0      6.32    -0.906
16246.462       26.0      6.28    -0.291
16252.553       26.0      6.32    -0.543
16272.470       26.0      6.28    -0.859
16284.772       26.0      6.40     0.045
16292.843       26.0      5.92    -0.578
16331.527       26.0      5.98    -0.613
16333.141       26.0      5.64    -1.504
16345.497       26.0      6.47    -0.742
16366.340       26.0      6.36    -0.555
16377.391       26.0      6.37    -0.484
16384.144       26.0      6.36    -0.385
16394.392       26.0      5.96     0.026
16404.620       26.0      6.36     0.128
16410.390       26.0      6.28    -1.258
16412.971       26.0      6.29    -0.438
16436.624       26.0      5.92    -0.508
16440.397       26.0      6.29    -0.367
16444.819       26.0      5.83     0.223
16466.924       26.0      6.39     0.007
16471.756       26.0      6.37    -0.854
16474.080       26.0      6.02    -0.566
16476.936       26.0      6.29    -0.637
16521.514       26.0      6.29    -0.672
16522.077       26.0      6.29    -0.193
16524.469       26.0      6.34     0.314
16531.986       26.0      6.29    -0.193
16539.196       26.0      6.34    -0.332
16541.965       26.0      6.34    -0.590
16544.670       26.0      6.34    -0.301
16551.997       26.0      6.41    -0.082
16559.680       26.0      6.40    -0.309
16561.767       26.0      5.98    -0.148
16586.051       26.0      5.62    -1.516
16607.637       26.0      6.34    -0.566
16612.764       26.0      6.40    -0.107
16645.877       26.0      5.96    -0.272
16661.382       26.0      6.34    -0.047
16665.484       26.0      6.02    -0.262
16720.730       26.0      6.38    -0.578
16721.465       26.0      6.38    -0.479
16724.688       26.0      6.38    -0.859
16753.068       26.0      6.38     0.036
16786.588       26.0      6.35    -1.199
16792.227       26.0      6.35    -1.152
16794.210       26.0      6.57    -0.578
16799.651       26.0      5.87    -0.672
16807.438       26.0      5.83    -1.621
16833.055       26.0      5.96    -1.223
16837.820       26.0      6.41    -0.218
16843.231       26.0      5.87    -1.410
16865.516       26.0      6.41    -1.281
16874.119       26.0      6.35    -1.035
16895.200       26.0      6.35    -1.023
17007.492       26.0      6.42    -1.053
17009.020       26.0      6.62    -0.367
17037.790       26.0      6.39    -0.520
17130.956       26.0      6.35    -0.684
17161.106       26.0      6.02    -0.244
17204.301       26.0      6.02    -0.170
17221.398       26.0      6.43    -0.742
17282.294       26.0      6.43    -0.193
17293.116       26.0      6.32    -0.789
17293.645       26.0      6.32    -0.684
17400.582       26.0      6.37    -0.742
17420.825       26.0      3.88    -3.648
17433.639       26.0      6.41    -0.484
17453.843       26.0      6.41    -0.684
17499.983       26.0      5.96    -1.281
17518.069       26.0      5.87    -1.293
17564.830       26.0      5.90    -0.760
17577.796       26.0      6.38    -0.801
17683.920       26.0      6.34    -0.058
17714.364       26.0      6.58    -0.402
17728.101       26.0      6.58     0.063
17791.446       26.0      6.72     0.072
17803.590       26.0      6.41    -1.129
19923.343       26.0      5.02    -1.551
20363.272       26.0      6.07    -0.625
20905.578       26.0      6.44    -0.484
21105.217       26.0      6.61    -0.281
21216.314       26.0      6.46    -1.105
21515.147       26.0      5.34    -1.879
21553.299       26.0      6.70    -0.812
21735.462       26.0      6.17    -0.801
21813.977       26.0      5.85    -1.691
21816.566       26.0      6.78    -0.543
21832.980       26.0      6.78    -0.355
21851.381       26.0      3.64    -3.590
22257.107       26.0      5.06    -0.871
22380.797       26.0      5.03    -0.684
22385.102       26.0      5.32    -1.422
22392.879       26.0      5.10    -1.352
22419.982       26.0      6.22    -0.301
22619.838       26.0      4.99    -0.479
23308.478       26.0      4.08    -2.664
24374.358       26.0      6.24     0.017
24552.005       26.0      5.92    -1.023
24648.429       26.0      6.27    -0.253
10427.305       26.1      6.08    -1.662
10501.498       26.1      5.55    -1.926
10862.644       26.1      5.59    -2.043
11125.580       26.1      5.62    -2.301
11833.056       26.1      2.84    -3.379
12913.876       26.1      6.50     0.045
13251.144       26.1      9.41     0.860
13277.306       26.1      5.29    -2.043
13294.853       26.1      3.22    -3.613
13419.109       26.1      3.81    -3.484
15247.133       26.1      6.84    -1.691
15350.156       26.1      8.95     0.602
20460.070       26.1      1.67    -5.758
